Trace for Mass:	1:228.5	2:233.5	3:236.5	4:236.7	5:237.05	6:237.5	7:239	8:233U	8:234U	8:235U	8:236U	8:238U
Resolution:	High	High	High	High	High	High	High	High	High	High	High	High
												
Time	Intensity	Intensity	Intensity	Intensity	Intensity	Intensity	Intensity	Intensity	Intensity	Intensity	Intensity	Intensity
[sec]	[cps]	[cps]	[cps]	[cps]	[cps]	[cps]	[cps]	[cps]	[cps]	[cps]	[cps]	[cps]

0.	0.4914229810237885	39.80529022216797	1083.236938476563	1618.781127929688	3340.242919921875	18927.501953125	4651.6005859375	9.951585670933127e-004	2.7397396042943e-003	0.4537429213523865	6.319983367575333e-005	63.24587631225586	
15.99300003051758	0.4914229810237885	35.55514144897461	1078.986572265625	1508.271118164063	3591.03271484375	20479.90234375	4749.37060546875	1.024416997097433e-003	2.819631015881896e-003	0.4567223489284515	9.053508983924985e-005	63.66611862182617	
31.98699951171875	0.7570570111274719	31.30499076843262	1151.241943359375	1631.5322265625	3518.77099609375	20284.25390625	4627.158203125	9.298376389779151e-004	2.792102284729481e-003	0.4419337511062622	1.573842746438459e-004	61.628173828125	
47.98099899291992	0.4914229810237885	7.929177761077881	968.478759765625	1725.041137695313	3463.51220703125	19897.2109375	4665.416015625	1.01713219191879e-003	2.849593758583069e-003	0.4594717025756836	4.887598333880305e-005	64.057373046875	
63.9739990234375	2.085227251052856	27.05484199523926	1257.500122070313	1856.804077148438	3548.52587890625	21581.521484375	4637.78564453125	9.054777328856289e-004	2.638425445184112e-003	0.4554966986179352	6.713893526466563e-005	63.49723052978516	
